w(t)
88.234
88.234
88.234
88.234
88.234
88.234
88.234
88.234
88.234
88.234
88.234
88.234
88.234
88.234
88.234
88.234
88.234
88.234
88.234
88.234
88.234
88.234
88.234
88.234
88.234
88.234
88.234
88.234
88.234
88.234
88.234
88.234
88.234
88.234
88.234
88.234
88.234
88.234
88.234
88.234
88.234
88.234
88.234
88.234
88.234
88.234
88.234
88.234
88.234
88.234
88.234
88.234
88.234
88.234
88.234
88.234
88.234
88.234
88.234
88.234
88.234
88.234
87.933
87.632
86.292
84.952
83.611
82.27
80.93
79.59
78.157
76.724
75.292
73.859
72.427
70.994
69.562
68.13
67.609
67.216
66.824
67.202
67.581
67.96
68.338
68.717
69.096
69.846
70.597
71.348
72.099
94.073
95.854
97.635
99.416
101.197
102.977
104.759
106.54
108.321
110.103
111.884
113.665
115.447
117.227
119.008
120.789
122.57
124.351
126.133
127.914
129.696
131.477
133.838
136.598
139.08
141.56
144.042
146.052
148.063
150.073
152.084
154.094
156.105
158.113
160.124
162.134
164.145
166.155
168.166
170.176
172.187
174.197
176.208
178.217
180.228
182.238
184.249
186.259
187.239
188.219
189.199
190.179
191.159
192.139
193.645
195.151
196.657
198.163
199.67
201.176
202.682
204.189
205.695
207.201
208.707
210.214
211.72
213.226
214.733
216.239
217.745
224.252
226.158
226.158
226.158
226.158
226.158
226.158
226.158
226.158
226.158
226.158
226.158
226.158
226.158
226.158
226.158
226.158
226.158
226.158
226.158
226.158
226.158
226.158
226.158
226.158
226.158
226.158
226.158
226.158
226.158
226.158
226.158
226.158
226.158
226.158
226.158
226.158
226.158
226.158
226.158
226.158
226.158
226.158
226.158
226.158
226.158
226.158
226.158
226.158
226.158
225.338
224.519
223.7
222.88
222.061
221.242
220.423
219.603
218.784
217.965
217.145
216.326
215.507
214.687
213.868
213.049
212.229
211.41
210.591
209.772
208.952
208.133
207.314
206.494
205.675
204.856
204.036
203.027
202.028
201.019
200.019
199.01
198.011
197.001
196.182
195.143
194.102
193.063
191.703
190.343
188.433
186.534
182.634
180.734
178.825
176.766
174.707
172.649
170.591
168.521
166.463
164.139
161.814
159.48
157.155
154.831
152.507
150.183
147.848
145.523
143.739
142.774
141.799
140.833
139.868
139.223
137.511
135.799
134.087
132.375
130.663
128.951
127.238
125.527
123.697
121.868
120.038
118.208
116.38
116.16
115.941
115.721
115.503
115.283
114.52
113.757
112.995
112.73
112.462
110.935
109.407
107.88
106.351
79.497
79.93
80.364
80.798
81.231
81.665
82.099
82.532
82.966
83.4
83.833
84.267
84.701
85.134
85.134
85.134
85.134
85.134
85.134
85.134
85.134
85.134
85.134
85.134
85.134
85.134
85.134
85.134
85.134
85.134
85.134
85.134
85.134
85.134
85.134
85.134
85.134
85.577
86.02
86.463
86.906
87.349
87.791
88.234
88.234
88.234
88.234
88.234
88.234
88.234
88.234
88.234
88.234
88.234
88.234
88.234
88.234
88.234
88.234
88.234
